trialnr	block	run	stim	keypress	go_nogo	face_onset	signal_onset	resp_onset	RT	accuracy	respmap	block_type
0	0	1	n_1.jpg	0	go	90912.0636244	91195.4716762	119295.469154	28099.9974781	0	0	n_n
1	0	1	n_14.jpg	0	go	120862.068844	121078.825888	122462.073947	1383.24805814	0	0	n_n
2	0	1	n_15.jpg	1	go	123845.361299	124328.859611	124912.2513	583.391688778	1	0	n_n
3	0	1	n_0.jpg	1	go	127012.076351	127428.751815	127862.161802	433.409987168	1	0	n_n
4	0	1	n_3.jpg	1	go	130028.799438	130512.150249	130962.136994	449.986745397	1	0	n_n
5	0	1	n_11.jpg	1	go	132812.007498	133162.183854	133562.207196	400.023342178	1	0	n_n
6	0	1	n_2.jpg	0	no-go	135845.437543	136145.536424	148795.443642	12649.9072178	1	0	n_n
7	0	1	n_12.jpg	0	no-go	150128.658212	150495.408688	151695.364936	1199.95624808	1	0	n_n
8	0	1	n_18.jpg	0	no-go	153212.114121	153678.728356	167245.460005	13566.7316494	1	0	n_n
9	0	1	n_13.jpg	0	no-go	168895.374847	169212.054006	171695.523874	2483.46986748	1	0	n_n
10	0	1	n_16.jpg	0	go	173095.372149	173545.442176	180328.771638	6783.32946252	0	0	n_n
11	0	1	n_4.jpg	0	go	181912.08855	182112.105206	183212.058111	1099.9529051	0	0	n_n
12	0	1	n_5.jpg	1	go	184862.101687	185128.650001	185578.68044	450.030438668	1	0	n_n
13	0	1	n_8.jpg	1	go	187962.090368	188212.339332	188645.429684	433.090351822	1	0	n_n
14	0	1	n_6.jpg	1	go	190562.063214	190895.529093	191278.866297	383.337204147	1	0	n_n
15	0	1	n_10.jpg	1	go	193411.953365	193845.441062	194378.632406	533.191344862	1	0	n_n
16	0	1	n_7.jpg	0	no-go	196262.03735	196645.434082	214478.784717	17833.3506347	1	0	n_n
17	0	1	n_17.jpg	1	go	215945.412441	216345.422587	217061.959406	716.536818473	1	0	n_n
0	1	1	h_15.jpg	1	go	238945.284294	239212.002102	239612.005797	400.003694867	1	0	h_n
1	1	1	h_1.jpg	1	go	241695.313618	242045.434258	242345.336374	299.902115341	1	0	h_n
2	1	1	h_4.jpg	1	go	244661.960403	245145.296258	245445.244999	299.948741047	1	0	h_n
3	1	1	h_14.jpg	1	no-go	247561.938292	247978.629298	248328.595399	349.966101058	0	0	h_n
4	1	1	h_8.jpg	1	go	250528.59534	250778.724368	251145.163125	366.438757867	1	0	h_n
5	1	1	h_10.jpg	1	go	253345.20588	253745.17204	254145.227346	400.055305712	1	0	h_n
6	1	1	h_18.jpg	1	go	256028.595927	256362.006677	257095.302651	733.29597412	1	0	h_n
7	1	1	h_13.jpg	1	no-go	259112.00609	259561.947969	259945.233269	383.285300059	0	0	h_n
8	1	1	h_12.jpg	1	go	261895.346403	262395.227053	262678.544785	283.317732782	1	0	h_n
9	1	1	h_7.jpg	1	go	264761.999521	265045.25362	265395.306521	350.052901116	1	0	h_n
10	1	1	h_17.jpg	1	go	267728.66742	268195.29749	268545.343939	350.04644976	1	0	h_n
11	1	1	h_0.jpg	1	no-go	270661.938409	271028.836973	271328.739088	299.902115341	0	0	h_n
12	1	1	h_3.jpg	1	go	273428.715746	273628.596924	273945.298369	316.701445338	1	0	h_n
13	1	1	h_5.jpg	1	no-go	276261.995123	276645.131162	276978.533994	333.402832028	0	0	h_n
14	1	1	h_16.jpg	1	go	279145.190984	279445.180192	279728.674458	283.494265331	1	0	h_n
15	1	1	h_2.jpg	1	go	282112.142155	282545.303472	282812.053537	266.7500651	1	0	h_n
16	1	1	h_11.jpg	1	no-go	284795.328397	285111.97266	285378.525666	266.553005511	0	0	h_n
17	1	1	h_6.jpg	1	go	287445.316257	287678.511942	288011.95964	333.447698274	1	0	h_n
0	2	1	s_1.jpg	1	go	292811.887268	293061.830672	293511.809206	449.978534581	1	0	s_g
1	2	1	s_6.jpg	1	go	295795.2111	296111.828971	296728.53634	616.707368856	1	0	s_g
2	2	1	s_8.jpg	1	go	298795.306404	299128.649708	299378.594285	249.944576991	1	0	s_g
3	2	1	s_7.jpg	1	go	301728.570649	302228.633403	302561.89196	333.258556257	1	0	s_g
4	2	1	s_4.jpg	1	go	304878.535929	305078.642025	305395.140546	316.49852088	1	0	s_g
5	2	1	s_17.jpg	1	go	307761.884863	308061.886681	308361.911666	300.024984341	1	0	s_g
6	2	1	s_10.jpg	1	go	310811.948849	311161.926093	311461.864864	299.93877077	1	0	s_g
7	2	1	s_11.jpg	1	go	313611.977939	314045.19116	314061.816889	16.6257298834	1	0	s_g
8	2	1	s_14.jpg	0	go	316295.183242	316578.605369	318828.514171	2249.90880129	0	0	s_g
9	2	1	s_3.jpg	1	go	320128.542674	320495.248577	320945.315084	450.066507611	1	0	s_g
10	2	1	s_12.jpg	1	go	322861.816068	323128.630354	323461.863691	333.233337321	1	0	s_g
11	2	1	s_13.jpg	1	go	325561.854131	325945.18635	326328.506253	383.319902784	1	0	s_g
12	2	1	s_0.jpg	1	go	328478.541912	328928.519273	329311.921284	383.402010946	1	0	s_g
13	2	1	s_15.jpg	1	go	331261.871961	331495.133039	331895.226759	400.093720602	1	0	s_g
14	2	1	s_16.jpg	1	go	333911.887385	334378.510124	334695.16465	316.654526388	1	0	s_g
15	2	1	s_5.jpg	1	go	336928.430127	337345.157495	337628.462912	283.305416558	1	0	s_g
16	2	1	s_2.jpg	1	go	339661.922868	340061.83595	340328.509772	266.673821806	1	0	s_g
17	2	1	s_18.jpg	1	go	342578.502441	343061.781993	343511.774897	449.992903509	1	0	s_g
0	3	1	h_13.jpg	1	go	346928.656804	347311.882283	347695.269925	383.387642019	1	0	h_g
1	3	1	h_10.jpg	1	go	349845.326697	350061.918938	350378.68695	316.768011598	1	0	h_g
2	3	1	h_7.jpg	1	go	352611.998173	352845.201775	353178.722491	333.52071589	1	0	h_g
3	3	1	h_6.jpg	1	go	355145.139959	355578.659619	355895.211511	316.551891186	1	0	h_g
4	3	1	h_14.jpg	1	go	358311.975827	358628.677859	358995.277314	366.599455271	1	0	h_g
5	3	1	h_12.jpg	1	go	361245.304879	361611.983804	362078.561383	466.57757931	1	0	h_g
6	3	1	h_11.jpg	1	go	364211.981868	364562.019227	365028.566603	466.547375237	1	0	h_g
7	3	1	h_18.jpg	1	go	367228.573875	367495.354437	367811.857357	316.502919532	1	0	h_g
8	3	1	h_5.jpg	1	go	369778.663666	370078.586015	370478.803191	400.217176089	1	0	h_g
9	3	1	h_17.jpg	1	go	372328.639679	372611.883808	372911.862459	299.978651878	1	0	h_g
10	3	1	h_2.jpg	1	go	375078.650529	375328.760788	375645.315905	316.555116863	1	0	h_g
11	3	1	h_15.jpg	1	go	378011.980754	378478.653637	378778.680674	300.027037045	1	0	h_g
12	3	1	h_8.jpg	1	go	380845.150457	381261.961693	381528.727007	266.765313759	1	0	h_g
13	3	1	h_1.jpg	1	go	383695.247345	384178.537454	384445.251157	266.713702914	1	0	h_g
14	3	1	h_3.jpg	1	go	386695.314791	386895.210338	387228.528129	333.317791431	1	0	h_g
15	3	1	h_4.jpg	1	go	389228.506722	389628.630647	389928.508423	299.877776136	1	0	h_g
16	3	1	h_0.jpg	1	go	392111.962397	392445.347048	392745.296375	299.949327535	1	0	h_g
17	3	1	h_16.jpg	1	go	394828.632934	395278.614988	395711.856946	433.241958678	1	0	h_g
0	4	1	n_1.jpg	1	go	400861.81167	401278.613815	401561.901344	283.287528709	1	0	n_g
1	4	1	n_10.jpg	1	go	403911.876535	404378.555577	405311.99958	933.444003406	1	0	n_g
2	4	1	n_6.jpg	1	go	406845.126998	407228.61141	407945.164357	716.552946862	1	0	n_g
3	4	1	n_13.jpg	1	go	409728.537806	410095.301184	410712.027028	616.725843192	1	0	n_g
4	4	1	n_11.jpg	1	go	412628.446783	412845.249867	413328.480154	483.230287589	1	0	n_g
5	4	1	n_7.jpg	1	go	415211.941987	415478.580033	415862.059167	383.47913397	1	0	n_g
6	4	1	n_17.jpg	1	go	418095.190045	418395.271332	418895.258136	499.986804045	1	0	n_g
7	4	1	n_2.jpg	1	go	420861.796421	421295.197024	421628.589006	333.391982021	1	0	n_g
8	4	1	n_16.jpg	1	go	423861.792022	424345.090049	424661.81642	316.72637103	1	0	n_g
9	4	1	n_0.jpg	1	go	426695.366988	427195.223885	427545.175618	349.951732131	1	0	n_g
10	4	1	n_15.jpg	1	go	429795.120195	429995.12776	430361.931899	366.804139189	1	0	n_g
11	4	1	n_14.jpg	1	go	432728.515226	433045.174738	433578.598332	533.423593663	1	0	n_g
12	4	1	n_8.jpg	1	go	435461.915595	435861.922516	436345.258957	483.336441714	1	0	n_g
13	4	1	n_12.jpg	1	go	438595.24019	438845.398541	439295.26535	449.866808831	1	0	n_g
14	4	1	n_3.jpg	1	go	441111.861814	441345.201188	441928.435406	583.234217052	1	0	n_g
15	4	1	n_5.jpg	1	go	443728.521971	444078.645251	444428.554169	349.908918589	1	0	n_g
16	4	1	n_18.jpg	1	go	446761.822989	447211.902106	447228.501444	16.5993379733	1	0	n_g
17	4	1	n_4.jpg	1	go	449561.769384	449845.202361	450245.227463	400.025101638	1	0	n_g
0	5	1	c_17.jpg	1	go	454695.074331	454911.776539	455411.882693	500.106154123	1	0	c_g
1	5	1	c_0.jpg	1	go	457278.427312	457511.827094	457945.037383	433.210288387	1	0	c_g
2	5	1	c_15.jpg	1	go	460128.47904	460545.079434	460878.497514	333.418080686	1	0	c_g
3	5	1	c_12.jpg	1	go	462961.847269	463161.837534	463595.096207	433.258673555	1	0	c_g
4	5	1	c_7.jpg	1	go	465695.176087	465961.766041	466328.408017	366.641975569	1	0	c_g
5	5	1	c_3.jpg	1	go	468611.863281	469095.07656	469811.878471	716.801910539	1	0	c_g
6	5	1	c_13.jpg	1	go	471661.711439	472045.119315	472478.411711	433.292396549	1	0	c_g
7	5	1	c_11.jpg	1	go	474528.426432	474961.722348	475428.518687	466.796338915	1	0	c_g
8	5	1	c_8.jpg	1	go	477361.732201	477711.777184	478045.048643	333.271458968	1	0	c_g
9	5	1	c_16.jpg	1	go	480295.021078	480794.995859	481111.841287	316.845427866	1	0	c_g
10	5	1	c_4.jpg	1	go	483478.497925	483728.478864	484111.808737	383.329873062	1	0	c_g
11	5	1	c_10.jpg	1	go	486495.066179	486828.356112	487178.411653	350.055540306	1	0	c_g
12	5	1	c_5.jpg	1	go	489545.165354	489861.806978	490328.323562	466.516584675	1	0	c_g
13	5	1	c_6.jpg	1	go	492545.065945	493011.691029	493428.395231	416.704201827	1	0	c_g
14	5	1	c_14.jpg	1	go	495261.758182	495711.638187	496228.465961	516.827774611	1	0	c_g
15	5	1	c_2.jpg	1	go	498061.686983	498345.136088	498728.396463	383.260374367	1	0	c_g
16	5	1	c_18.jpg	1	go	500795.068584	501095.067176	501428.373824	333.306648181	1	0	c_g
17	5	1	c_1.jpg	1	go	503378.411008	503778.436109	504128.407782	349.971672684	1	0	c_g
0	6	1	s_12.jpg	1	go	508594.961902	508895.009466	509261.78692	366.777454037	1	0	s_n
1	6	1	s_11.jpg	1	go	511145.060783	511511.779296	511878.498101	366.71880535	1	0	s_n
2	6	1	s_3.jpg	1	no-go	514195.135326	514528.324677	514961.785102	433.460425039	0	0	s_n
3	6	1	s_14.jpg	1	go	517145.01797	517645.109755	518045.111984	400.00222865	1	0	s_n
4	6	1	s_15.jpg	1	go	520278.399161	520628.401037	520961.668391	333.267353561	1	0	s_n
5	6	1	s_13.jpg	1	no-go	523211.6593	523461.683933	523845.007648	383.323714948	0	0	s_n
6	6	1	s_4.jpg	1	go	525928.445083	526245.123362	526828.454056	583.330694142	1	0	s_n
7	6	1	s_2.jpg	1	go	528795.07005	529195.028879	529561.697246	366.668367479	1	0	s_n
8	6	1	s_8.jpg	1	no-go	531944.960846	532378.345028	532728.38268	350.037652457	0	0	s_n
9	6	1	s_6.jpg	1	go	534878.400451	535261.692789	535544.946301	283.25351247	1	0	s_n
10	6	1	s_7.jpg	1	go	537711.778064	538195.020375	538478.378575	283.358200377	1	0	s_n
11	6	1	s_18.jpg	1	go	540511.708037	540928.293769	541428.273828	499.980059446	1	0	s_n
12	6	1	s_0.jpg	1	no-go	543261.778123	543461.787448	543811.685516	349.898068582	0	0	s_n
13	6	1	s_16.jpg	1	no-go	545878.363795	546145.045242	546795.116676	650.071434101	0	0	s_n
14	6	1	s_10.jpg	1	go	548678.42221	548895.131748	549628.342975	733.211226767	1	0	s_n
15	6	1	s_5.jpg	1	go	551261.661998	551545.105239	552011.593673	466.488433305	1	0	s_n
16	6	1	s_1.jpg	0	go	554261.701	554711.744341	556411.738124	1699.99378324	0	0	s_n
17	6	1	s_17.jpg	1	go	557711.677775	557944.956154	558394.91944	449.963285921	1	0	s_n
0	7	1	c_12.jpg	1	go	562828.437634	563061.746804	563495.071458	433.324653328	1	0	c_n
1	7	1	c_4.jpg	1	go	565695.048233	565978.286496	566328.270779	349.984282152	1	0	c_n
2	7	1	c_8.jpg	1	go	568295.119315	568545.097322	568811.787565	266.690243439	1	0	c_n
3	7	1	c_3.jpg	1	go	570995.083774	571461.733491	571761.6576	299.924108598	1	0	c_n
4	7	1	c_17.jpg	1	go	573878.367901	574278.321744	574628.317463	349.995718646	1	0	c_n
5	7	1	c_13.jpg	1	go	577044.966535	577361.57033	577711.576312	350.005982166	1	0	c_n
6	7	1	c_5.jpg	1	go	579895.088935	580394.92032	580794.940143	400.019823257	1	0	c_n
7	7	1	c_6.jpg	1	no-go	582944.952049	583311.656778	583744.911053	433.254274903	0	0	c_n
8	7	1	c_18.jpg	1	no-go	585728.408779	586028.333767	586344.951052	316.617284471	0	0	c_n
9	7	1	c_11.jpg	1	go	588328.360218	588711.645225	589078.294531	366.649306655	1	0	c_n
10	7	1	c_15.jpg	1	go	591195.064654	591678.256234	592011.75349	333.497256414	1	0	c_n
11	7	1	c_7.jpg	1	no-go	594011.759355	594228.261864	594561.751203	333.489338841	0	0	c_n
12	7	1	c_2.jpg	1	go	596945.070519	597144.971637	597461.680121	316.70848318	1	0	c_n
13	7	1	c_14.jpg	1	go	599511.630621	599845.059259	600145.011519	299.952259968	1	0	c_n
14	7	1	c_10.jpg	1	go	602344.996211	602695.014216	603011.631208	316.616991228	1	0	c_n
15	7	1	c_16.jpg	1	no-go	604961.659887	605394.934689	605678.358576	283.423886907	0	0	c_n
16	7	1	c_0.jpg	1	no-go	608094.927299	608361.671499	608694.900731	333.229231913	0	0	c_n
17	7	1	c_1.jpg	1	go	610944.995742	611361.676778	611694.889588	333.212810281	1	0	c_n
0	0	1	s_1.jpg	1	go	614828.405964	615361.628686	615795.080314	433.451627735	1	0	s_n
1	0	1	s_3.jpg	1	no-go	617778.397694	618161.842519	618478.317287	316.474768161	0	0	s_n
2	0	1	s_10.jpg	1	go	620545.055681	620878.394293	621228.397636	350.003342975	1	0	s_n
3	0	1	s_11.jpg	1	go	623195.027999	623511.650855	623861.664755	350.013899739	1	0	s_n
4	0	1	s_16.jpg	1	go	626011.641471	626245.044772	626595.041371	349.996598376	1	0	s_n
5	0	1	s_2.jpg	1	no-go	628678.360922	629128.498687	629478.380334	349.881646948	0	0	s_n
6	0	1	s_13.jpg	1	go	631894.958442	632244.97762	632561.721292	316.743672392	1	0	s_n
7	0	1	s_7.jpg	1	no-go	634744.944483	635211.761349	635511.719767	299.958418081	0	0	s_n
8	0	1	s_18.jpg	1	go	637895.055212	638295.041899	638611.705516	316.663616934	1	0	s_n
9	0	1	s_12.jpg	1	go	640745.028351	641178.359455	641528.296819	349.937363202	1	0	s_n
10	0	1	s_5.jpg	1	go	643861.692906	644128.288725	644528.297405	400.008680005	1	0	s_n
11	0	1	s_8.jpg	1	go	646761.701	647045.033981	647611.632205	566.598223648	1	0	s_n
12	0	1	s_4.jpg	1	no-go	649328.352887	649745.00929	650111.606986	366.597695811	0	0	s_n
13	0	1	s_6.jpg	1	go	652478.355702	652728.334882	653111.621061	383.286179789	1	0	s_n
14	0	1	s_0.jpg	1	go	655361.873837	655661.697657	655995.013982	333.316325214	1	0	s_n
15	0	1	s_17.jpg	1	go	657928.313123	658144.931756	658894.968998	750.037241916	1	0	s_n
16	0	1	s_14.jpg	1	no-go	660694.945597	661061.709269	661344.965714	283.256444904	0	0	s_n
17	0	1	s_15.jpg	1	go	663395.016504	663611.677951	663961.678948	350.000997027	1	0	s_n
0	1	1	c_3.jpg	1	go	668744.985244	669161.65279	669328.25465	166.601859867	1	0	c_g
1	1	1	c_0.jpg	1	go	671494.995801	671961.641999	672328.327668	366.685668841	1	0	c_g
2	1	1	c_10.jpg	1	go	674428.304032	674711.611502	675061.592851	349.981349718	1	0	c_g
3	1	1	c_14.jpg	1	go	677444.876685	677711.596546	678044.991168	333.394621212	1	0	c_g
4	1	1	c_12.jpg	1	go	680244.975274	680461.627337	680844.993865	383.36652849	1	0	c_g
5	1	1	c_13.jpg	1	go	683128.318636	683478.334002	683894.93117	416.597167972	1	0	c_g
6	1	1	c_16.jpg	1	go	686244.917212	686494.927475	687044.926947	549.999472161	1	0	c_g
7	1	1	c_15.jpg	1	go	689194.902491	689494.979966	689795.000845	300.020878933	1	0	c_g
8	1	1	c_6.jpg	1	go	691778.403853	692178.305205	692728.290895	549.98568972	1	0	c_g
9	1	1	c_5.jpg	1	go	694611.698771	695044.987062	695061.792257	16.8051948658	1	0	c_g
10	1	1	c_8.jpg	1	go	697678.242158	698128.355291	698461.594494	333.239202189	1	0	c_g
11	1	1	c_7.jpg	1	go	700494.96413	700811.584054	701261.56904	449.984985937	1	0	c_g
12	1	1	c_4.jpg	1	go	703211.632908	703595.025536	704211.626457	616.600921488	1	0	c_g
13	1	1	c_1.jpg	1	go	705878.316877	706245.028644	706844.878621	599.849976657	1	0	c_g
14	1	1	c_11.jpg	1	go	708744.891699	709244.902256	709778.288901	533.38664499	1	0	c_g
15	1	1	c_18.jpg	1	go	711578.301862	711811.627161	712194.925657	383.298496013	1	0	c_g
16	1	1	c_17.jpg	1	go	714394.927651	714878.379631	715278.308548	399.928917791	1	0	c_g
17	1	1	c_2.jpg	1	go	717361.607572	717694.964658	718128.241513	433.276854647	1	0	c_g
0	2	1	n_8.jpg	1	go	722594.929645	722911.622586	723278.207086	366.584499856	1	0	n_g
1	2	1	n_3.jpg	1	go	725244.875571	725478.210253	725778.246381	300.036127591	1	0	n_g
2	2	1	n_15.jpg	1	go	728094.911464	728511.419486	728811.495201	300.075715455	1	0	n_g
3	2	1	n_5.jpg	1	go	730928.293476	731294.894104	731661.591503	366.697398579	1	0	n_g
4	2	1	n_11.jpg	1	go	733844.805603	734178.267084	734478.324032	300.056947875	1	0	n_g
5	2	1	n_14.jpg	1	go	736644.82179	736994.75886	737394.810647	400.051786791	1	0	n_g
6	2	1	n_17.jpg	1	go	739678.275881	739928.271776	740544.882961	616.611185009	1	0	n_g
7	2	1	n_2.jpg	1	go	742561.606047	742994.830411	743178.143922	183.313510078	1	0	n_g
8	2	1	n_13.jpg	1	go	745361.610798	745578.130608	745911.622293	333.491684789	1	0	n_g
9	2	1	n_1.jpg	1	go	748328.217408	748594.903253	748961.571914	366.668660722	1	0	n_g
10	2	1	n_6.jpg	1	go	750861.434852	751311.443591	751628.17524	316.731649413	1	0	n_g
11	2	1	n_16.jpg	1	go	753611.530449	753994.805193	754328.238815	333.433622588	1	0	n_g
12	2	1	n_18.jpg	1	go	756728.163921	756944.755282	757278.207086	333.451803682	1	0	n_g
13	2	1	n_0.jpg	1	go	759278.245794	759761.427697	760094.820265	333.392568507	1	0	n_g
14	2	1	n_10.jpg	1	go	762261.58165	762661.487401	763028.275705	366.788304044	1	0	n_g
15	2	1	n_12.jpg	1	go	765244.862668	765544.857742	765878.203098	333.345356315	1	0	n_g
16	2	1	n_7.jpg	1	go	767994.923076	768494.872052	768994.898444	500.026391909	1	0	n_g
17	2	1	n_4.jpg	1	go	771028.112075	771311.577896	772111.51608	799.938184283	1	0	n_g
0	3	1	h_3.jpg	1	go	774928.245677	775361.521945	775761.654081	400.132135493	1	0	h_n
1	3	1	h_2.jpg	1	go	777711.515318	778111.525464	778561.524526	449.99906162	1	0	h_n
2	3	1	h_6.jpg	1	no-go	780678.223977	780894.912109	781211.612381	316.700272364	0	0	h_n
3	3	1	h_7.jpg	1	go	783394.796571	783844.840499	784594.852229	750.011729738	1	0	h_n
4	3	1	h_8.jpg	1	go	786478.236938	786828.218875	787111.56124	283.342365231	1	0	h_n
5	3	1	h_5.jpg	1	go	789494.852991	789994.904895	790294.962136	300.057241118	1	0	h_n
6	3	1	h_14.jpg	1	no-go	792678.168554	793061.560888	793161.561885	100.000997027	0	0	h_n
7	3	1	h_16.jpg	1	go	795328.342037	795578.155534	795994.91164	416.756105915	1	0	h_n
8	3	1	h_17.jpg	1	go	797961.554906	798261.555844	798611.564759	350.008914601	1	0	h_n
9	3	1	h_18.jpg	1	no-go	800844.885365	801061.488457	801178.145095	116.656637741	0	0	h_n
10	3	1	h_10.jpg	1	go	803594.885365	803911.508221	804344.946067	433.437845294	1	0	h_n
11	3	1	h_15.jpg	1	go	806311.559128	806778.226733	807428.4096	650.182866607	1	0	h_n
12	3	1	h_4.jpg	1	go	809395.053159	809761.571679	810411.517312	649.945632666	1	0	h_n
13	3	1	h_11.jpg	1	no-go	812094.80531	812578.210077	812994.822201	416.612123387	0	0	h_n
14	3	1	h_12.jpg	1	no-go	815044.84308	815278.212365	815661.52435	383.311985212	0	0	h_n
15	3	1	h_0.jpg	1	go	818044.85217	818311.559715	818861.547751	549.988035668	1	0	h_n
16	3	1	h_1.jpg	1	go	820611.536314	820944.870234	821478.12228	533.252046253	1	0	h_n
17	3	1	h_13.jpg	1	go	823361.487929	823644.880732	824011.6793	366.798567564	1	0	h_n
0	4	1	s_1.jpg	1	go	828878.109553	829094.846071	829494.881143	400.035071915	1	0	s_g
1	4	1	s_6.jpg	1	go	831728.397343	832044.877976	832411.552501	366.674525591	1	0	s_g
2	4	1	s_13.jpg	1	go	834511.525347	834778.208552	835178.191427	399.982874584	1	0	s_g
3	4	1	s_17.jpg	1	go	837511.543235	837911.541065	838261.532971	349.991906482	1	0	s_g
4	4	1	s_10.jpg	1	go	840328.158466	840628.185797	840961.49743	333.311633319	1	0	s_g
5	4	1	s_15.jpg	1	go	842961.505934	843394.828535	843794.889119	400.060584094	1	0	s_g
6	4	1	s_4.jpg	1	go	845728.094715	846228.08973	846428.107266	200.017535957	1	0	s_g
7	4	1	s_12.jpg	1	go	848861.531329	849344.844311	849644.848475	300.004164056	1	0	s_g
8	4	1	s_11.jpg	1	go	851744.867947	852161.519365	852528.251952	366.732587791	1	0	s_g
9	4	1	s_0.jpg	1	go	854728.168613	855095.007941	855328.090141	233.082199654	1	0	s_g
10	4	1	s_16.jpg	1	go	857628.159991	858078.181633	858411.519365	333.337731985	1	0	s_g
11	4	1	s_7.jpg	1	go	860561.491976	860894.778977	861178.206676	283.427699071	1	0	s_g
12	4	1	s_2.jpg	1	go	863394.752585	863628.148262	863961.581298	333.433036102	1	0	s_g
13	4	1	s_8.jpg	1	go	865928.153305	866394.838798	866711.550507	316.711708859	1	0	s_g
14	4	1	s_5.jpg	1	go	869061.509277	869278.078059	869678.095536	400.017477309	1	0	s_g
15	4	1	s_18.jpg	1	go	872028.087443	872278.097706	872678.076476	399.978769176	1	0	s_g
16	4	1	s_3.jpg	1	go	874644.796864	874928.156238	875411.496198	483.339960635	1	0	s_g
17	4	1	s_14.jpg	1	go	877194.725665	877544.861261	877944.794577	399.933316442	1	0	s_g
0	5	1	n_17.jpg	1	go	882578.152895	882861.524291	883328.137646	466.61335501	1	0	n_n
1	5	1	n_7.jpg	0	no-go	885478.113776	885694.696047	887861.487049	2166.79100188	1	0	n_n
2	5	1	n_14.jpg	1	go	889361.470334	889794.768302	890161.480363	366.712060751	1	0	n_n
3	5	1	n_0.jpg	1	go	892294.770062	892761.431802	893078.024454	316.592652023	1	0	n_n
4	5	1	n_2.jpg	1	no-go	895527.961935	895828.022695	896327.959941	499.937245905	0	0	n_n
5	5	1	n_15.jpg	1	go	898094.770707	898378.084041	898894.827655	516.743613745	1	0	n_n
6	5	1	n_3.jpg	1	go	900944.802495	901394.76666	901744.741852	349.975191605	1	0	n_n
7	5	1	n_16.jpg	1	go	903728.108791	903994.874984	904544.882374	550.007389735	1	0	n_n
8	5	1	n_4.jpg	1	no-go	906378.132133	906761.311279	906777.991259	16.679979919	0	0	n_n
9	5	1	n_1.jpg	1	go	909361.33163	909694.716281	910011.36113	316.644849355	1	0	n_n
10	5	1	n_5.jpg	1	go	912161.456611	912394.660506	912728.120814	333.460307741	1	0	n_n
11	5	1	n_18.jpg	1	go	914728.096182	915128.119817	915428.088792	299.968974845	1	0	n_n
12	5	1	n_8.jpg	1	go	917544.741324	918044.75364	918694.668482	649.914842106	1	0	n_n
13	5	1	n_13.jpg	1	go	920578.05847	920944.818916	921278.057532	333.238615703	1	0	n_n
14	5	1	n_11.jpg	1	go	923227.998825	923644.730591	923977.964222	333.233630565	1	0	n_n
15	5	1	n_10.jpg	1	no-go	926361.380015	926844.757511	927178.087032	333.329521169	0	0	n_n
16	5	1	n_12.jpg	1	go	929511.388989	929728.089144	930128.097237	400.008093518	1	0	n_n
17	5	1	n_6.jpg	1	no-go	932411.297086	932728.028149	933128.087853	400.059704363	0	0	n_n
0	6	1	c_5.jpg	1	go	936794.691766	937278.098	937811.485818	533.387817963	1	0	c_n
1	6	1	c_2.jpg	1	go	939694.843842	940111.447755	940594.693291	483.245536248	1	0	c_n
2	6	1	c_0.jpg	1	go	942644.925305	942994.799328	943344.762496	349.963168625	1	0	c_n
3	6	1	c_1.jpg	1	go	945278.103278	945711.423533	946061.423357	349.999824054	1	0	c_n
4	6	1	c_16.jpg	1	go	948061.433327	948394.759329	949211.451977	816.692648035	1	0	c_n
5	6	1	c_11.jpg	1	no-go	950694.756162	950911.396789	951461.401246	550.0044573	0	0	c_n
6	6	1	c_6.jpg	1	go	953661.333155	954128.077883	954511.458487	383.380604175	1	0	c_n
7	6	1	c_7.jpg	1	no-go	956578.079877	956978.125213	957694.798389	716.673176671	0	0	c_n
8	6	1	c_12.jpg	1	go	959344.756338	959661.416143	960061.418958	400.002815137	1	0	c_n
9	6	1	c_17.jpg	1	go	962244.679098	962528.068382	962928.060347	399.991965131	1	0	c_n
10	6	1	c_14.jpg	1	no-go	965194.681385	965461.390103	965944.653234	483.263130854	0	0	c_n
11	6	1	c_10.jpg	1	no-go	967944.717161	968311.396085	968811.419545	500.023459475	0	0	c_n
12	6	1	c_3.jpg	1	go	970811.416612	971061.306353	971544.748362	483.442009351	1	0	c_n
13	6	1	c_13.jpg	1	no-go	973627.986684	973844.737864	974194.732409	349.994545672	0	0	c_n
14	6	1	c_18.jpg	1	go	976528.069848	977028.07542	977361.406114	333.330694142	1	0	c_n
15	6	1	c_15.jpg	1	go	979661.330516	979894.71241	980211.385411	316.673000724	1	0	c_n
16	6	1	c_4.jpg	1	go	982611.325472	982911.347524	982928.216059	16.8685354483	1	0	c_n
17	6	1	c_8.jpg	1	go	985328.024747	985778.083044	986128.034776	349.95173213	1	0	c_n
0	7	1	h_17.jpg	1	go	990461.378666	990828.057591	991144.660213	316.6026223	1	0	h_g
1	7	1	h_5.jpg	1	go	993328.027093	993628.026272	993978.106738	350.080465999	1	0	h_g
2	7	1	h_1.jpg	1	go	996177.961524	996644.698628	996944.691942	299.993314049	1	0	h_g
3	7	1	h_0.jpg	1	go	998927.947742	999427.969148	999711.376027	283.406878787	1	0	h_g
4	7	1	h_10.jpg	1	go	1002094.69534	1002328.04117	1002478.23547	150.194303102	1	0	h_g
5	7	1	h_4.jpg	1	go	1004644.6866	1005094.77481	1005428.02105	333.246240032	1	0	h_g
6	7	1	h_8.jpg	1	go	1007694.68637	1008011.30453	1008511.30717	500.002639191	1	0	h_g
7	7	1	h_16.jpg	1	go	1010344.62731	1010828.03032	1011011.36582	183.335503335	1	0	h_g
8	7	1	h_7.jpg	1	go	1013194.64414	1013478.02492	1013844.86572	366.840794619	1	0	h_g
9	7	1	h_13.jpg	1	go	1016028.00592	1016444.63183	1016811.41016	366.778333767	1	0	h_g
10	7	1	h_11.jpg	1	go	1018927.99261	1019144.72649	1019478.00909	333.282602219	1	0	h_g
11	7	1	h_15.jpg	1	go	1021777.95284	1021994.67118	1022377.96176	383.29057844	1	0	h_g
12	7	1	h_14.jpg	1	go	1024411.327	1024844.63845	1025211.37955	366.741091851	1	0	h_g
13	7	1	h_6.jpg	1	go	1027561.33333	1027827.9966	1028244.81282	416.816220819	1	0	h_g
14	7	1	h_12.jpg	1	go	1030227.98475	1030611.2809	1030911.27978	299.998885675	1	0	h_g
15	7	1	h_18.jpg	1	go	1033378.00399	1033627.9946	1033961.2816	333.28700087	1	0	h_g
16	7	1	h_3.jpg	1	go	1036311.25445	1036661.35398	1036978.01026	316.656285849	1	0	h_g
17	7	1	h_2.jpg	1	go	1039111.33896	1039444.60661	1039694.60719	250.000586487	1	0	h_g
